Sensor Position (Degrees),Light Intensity (Volts)
0.0,0.0447
0.0,0.0484
0.0,0.04293
0.0,0.04245
0.0,0.04647
0.0,0.04051
0.0,0.04035
0.0,0.0418
0.0,0.04084
0.0,0.04454
0.0,0.04212
0.0,0.04744
0.0,0.04084
0.0,0.04486
0.0,0.04341
0.0,0.04019
0.0,0.04277
0.0,0.04035
0.0,0.04808
0.0,0.04373
0.0,0.0418
0.0,0.04245
0.0,0.04534
0.0,0.04132
0.0,0.04212
0.0,0.04148
0.0,0.03826
0.0,0.04003
0.0,0.0455
0.0,0.04164
0.0,0.04534
0.0,0.04261
0.0,0.0447
0.0,0.04164
0.0,0.04373
0.0,0.04534
0.0,0.04341
0.0,0.04261
0.0,0.04084
0.0,0.04261
0.0,0.04438
0.0,0.03874
0.0,0.04212
0.0,0.03842
0.0,0.04406
0.0,0.04486
0.0,0.04454
0.0,0.04341
0.0,0.04631
0.0,0.04518
0.0,0.04084
0.0,0.04212
0.0,0.04566
0.0,0.04277
0.0,0.03794
0.0,0.04422
0.0,0.041
0.0,0.04261
0.0,0.04261
0.0,0.04438
0.0,0.03923
0.0,0.04132
0.0,0.04486
0.0,0.04261
0.0,0.04068
0.0,0.04212
0.0,0.04615
0.0,0.04261
0.0,0.0455
0.0,0.04341
0.0,0.04357
0.0,0.03971
0.0,0.04245
0.0,0.04566
0.0,0.04196
0.0,0.04389
0.0,0.04438
0.0,0.04325
0.0,0.04647
0.0,0.04438
0.0,0.04422
0.0,0.03987
0.0,0.04293
0.0,0.03955
0.0,0.04116
0.0,0.03987
0.0,0.04357
0.0,0.04035
0.0,0.04132
0.0,0.04228
0.0,0.04325
0.0,0.04325
0.0,0.04245
0.0,0.04389
0.0,0.04051
0.0,0.0418
0.0,0.04212
0.0,0.04357
0.0,0.04277
0.0,0.04357
0.0,0.04212
0.0,0.04212
0.0,0.04293
0.0,0.04019
0.0,0.04583
0.0,0.04776
0.0,0.04566
0.0,0.03955
0.0,0.04325
0.0,0.04325
0.0,0.04293
0.0,0.04486
0.0,0.04615
0.0,0.04212
0.0,0.04212
0.0,0.04196
0.0,0.04261
0.0,0.04566
0.0,0.04051
0.0,0.04309
0.0,0.04245
0.0,0.041
0.0,0.04293
0.0,0.0447
0.0,0.04341
0.0,0.04486
0.0,0.04486
0.0,0.04534
0.0,0.04003
0.0,0.04631
0.0,0.04776
0.0,0.04228
0.0,0.03923
0.0,0.04744
0.0,0.04534
0.0,0.04325
0.0,0.04325
0.0,0.04534
0.0,0.04357
0.0,0.04406
0.0,0.04277
0.0,0.04502
0.0,0.04132
0.0,0.04454
0.0,0.04599
0.0,0.04261
0.0,0.04035
0.0,0.03939
0.0,0.04084
0.0,0.04277
0.0,0.03874
0.0,0.04454
0.0,0.04196
0.0,0.03874
0.0,0.0455
0.0,0.04373
0.0,0.04035
0.0,0.04003
0.0,0.04373
0.0,0.04486
0.0,0.04035
0.0,0.04261
0.0,0.04212
0.0,0.04164
0.0,0.04309
0.0,0.04325
0.0,0.04116
0.01015,0.04116
0.01015,0.04486
0.01015,0.04599
0.01015,0.04872
0.01015,0.03794
0.01015,0.04068
0.0203,0.04196
0.0203,0.03971
0.05076,0.04744
0.09137,0.041
0.13198,0.04454
0.17259,0.04228
0.24365,0.04583
0.28426,0.04196
0.29442,0.041
0.33503,0.041
0.34518,0.03923
0.35533,0.04727
0.35533,0.04679
0.34518,0.04325
0.34518,0.04502
0.33503,0.04389
0.33503,0.04341
0.33503,0.04228
0.32487,0.04341
0.31472,0.04647
0.30457,0.04438
0.30457,0.04341
0.31472,0.04309
0.31472,0.04051
0.30457,0.03842
0.30457,0.04727
0.30457,0.0447
0.30457,0.04196
0.30457,0.04373
0.30457,0.04422
0.31472,0.03987
0.32487,0.04502
0.33503,0.04341
0.33503,0.04196
0.33503,0.04245
0.35533,0.04518
0.40609,0.04228
0.46701,0.04341
0.50761,0.04438
0.53807,0.0455
0.64975,0.04196
0.72081,0.041
0.76142,0.04261
0.92386,0.04212
1.06599,0.04309
1.15736,0.03746
1.29949,0.04068
1.43147,0.03971
1.5736,0.041
1.81726,0.04116
1.96954,0.0381
2.05076,0.04019
2.31472,0.04068
2.4467,0.04454
2.52792,0.04132
2.76142,0.04277
2.91371,0.04132
2.98477,0.04277
3.18782,0.041
3.3198,0.03939
3.41117,0.04583
3.65482,0.04051
3.80711,0.04212
3.90863,0.03762
4.18274,0.04245
4.33503,0.04454
4.40609,0.04035
4.56853,0.04164
4.69036,0.04277
4.75127,0.04309
4.92386,0.03874
5.03553,0.04068
5.1066,0.04148
5.28934,0.03923
5.39086,0.0418
5.45178,0.04084
5.63452,0.04019
5.75635,0.04212
5.80711,0.04084
5.9797,0.04389
6.08122,0.04325
6.17259,0.04035
6.35533,0.04116
6.47716,0.03858
6.52792,0.04212
6.69036,0.04019
6.78173,0.041
6.83249,0.04228
6.97462,0.04309
7.09645,0.04261
7.17766,0.04357
7.32995,0.04196
7.41117,0.03923
7.45178,0.041
7.59391,0.04068
7.66497,0.04019
7.72589,0.04341
7.82741,0.03923
7.88832,0.03971
7.93909,0.03971
8.05076,0.04228
8.10152,0.04003
8.13198,0.03971
8.2132,0.03649
8.27411,0.03762
8.30457,0.04196
8.49746,0.04084
8.59898,0.04212
8.67005,0.04325
8.83249,0.03987
8.95431,0.04631
9.04569,0.04164
9.26904,0.03874
9.40102,0.04019
9.47208,0.04245
9.69543,0.04518
9.86802,0.03939
9.94924,0.03987
10.2335,0.04309
10.36548,0.04003
10.45685,0.04325
10.64975,0.03955
10.77157,0.04051
10.81218,0.04293
11.00508,0.04341
11.1269,0.04406
11.17766,0.04035
11.29949,0.04132
11.38071,0.04341
11.42132,0.04325
11.50254,0.04309
11.5736,0.04438
11.59391,0.04406
11.68528,0.04116
11.74619,0.03923
11.7868,0.0373
11.86802,0.04357
11.93909,0.04373
11.96954,0.04051
12.06091,0.04116
12.13198,0.0381
12.16244,0.04438
12.27411,0.04245
12.36548,0.0455
12.40609,0.04422
12.53807,0.04663
12.63959,0.04502
12.69036,0.03987
12.83249,0.04325
12.92386,0.04357
12.96447,0.04293
13.08629,0.04293
13.16751,0.04196
13.20812,0.04776
13.29949,0.0447
13.35025,0.04518
13.38071,0.04261
13.49239,0.0447
13.59391,0.03971
13.64467,0.04663
13.79695,0.04647
13.92893,0.04454
14.0,0.04389
14.15228,0.04245
14.29442,0.03987
14.35533,0.04792
14.52792,0.04615
14.62944,0.04132
14.69036,0.04727
14.84264,0.04679
14.92386,0.04744
14.95431,0.04824
15.04569,0.0476
15.11675,0.0447
15.14721,0.04502
15.23858,0.04357
15.29949,0.04647
15.32995,0.05001
15.44162,0.0513
15.51269,0.0455
15.58376,0.04953
15.74619,0.05243
15.85787,0.04583
15.90863,0.05017
16.12183,0.04953
16.2132,0.05355
16.26396,0.0513
16.43655,0.05339
16.51777,0.05146
16.54822,0.04905
16.6599,0.0513
16.73096,0.05532
16.77157,0.05243
16.90355,0.05564
16.97462,0.05725
17.00508,0.05645
17.16751,0.0616
17.24873,0.06257
17.29949,0.06208
17.54315,0.06273
17.64467,0.06659
17.69543,0.06933
17.94924,0.07383
18.08122,0.07947
18.19289,0.08156
18.41624,0.09814
18.50761,0.10313
18.59898,0.11423
18.72081,0.12888
18.78173,0.13806
18.83249,0.14771
18.96447,0.16188
19.05584,0.17379
19.1269,0.18666
19.3401,0.22497
19.49239,0.24847
19.63452,0.27825
19.88832,0.3642
20.03046,0.41136
20.15228,0.47188
20.36548,0.56556
20.45685,0.6264
20.55838,0.67871
20.73096,0.76161
20.81218,0.80571
20.8934,0.84659
21.05584,0.91983
21.14721,0.94526
21.23858,0.96345
21.45178,0.99258
21.58376,1.00095
21.69543,1.00401
21.94924,0.976
22.06091,0.94671
22.11168,0.9282
22.26396,0.87251
22.39594,0.82213
22.4467,0.79943
22.63959,0.70865
22.81218,0.64652
22.8934,0.61465
23.1269,0.50263
23.29949,0.43325
23.37056,0.4075
23.60406,0.32106
23.77665,0.27052
23.83756,0.24912
24.06091,0.19906
24.20305,0.17105
24.27411,0.15817
24.45685,0.12309
24.56853,0.10747
24.60914,0.10264
24.74112,0.09025
24.83249,0.08269
24.8731,0.07689
24.97462,0.06804
25.05584,0.06627
25.08629,0.0645
25.16751,0.0616
25.25888,0.05725
25.30964,0.05951
25.50254,0.05758
25.62437,0.05613
25.67513,0.05516
25.87817,0.05259
26.0203,0.05114
26.07107,0.05307
26.27411,0.05162
26.40609,0.04921
26.46701,0.05693
26.67005,0.05001
26.80203,0.04808
26.86294,0.04985
27.08629,0.0455
27.24873,0.05162
27.3198,0.04888
27.54315,0.05146
27.69543,0.04937
27.77665,0.05082
27.9797,0.05033
28.12183,0.05017
28.19289,0.04744
28.41624,0.0476
28.55838,0.05065
28.63959,0.04486
28.88325,0.0513
29.07614,0.0513
29.16751,0.04808
29.46193,0.04711
29.65482,0.04888
29.75635,0.04969
30.08122,0.04921
30.2132,0.04647
30.26396,0.04341
30.46701,0.04518
30.6599,0.0476
30.75127,0.04534
30.95431,0.04969
31.07614,0.04293
31.13706,0.04824
31.39086,0.04937
31.5736,0.04905
31.65482,0.04905
31.88832,0.04937
32.01015,0.04824
32.09137,0.04663
32.35533,0.04615
32.56853,0.04663
32.6599,0.04663
32.8731,0.04228
33.01523,0.04695
33.1066,0.05098
33.41117,0.04888
33.61421,0.04711
33.71574,0.04583
34.05076,0.0476
34.25381,0.04776
34.35533,0.04583
34.6802,0.04534
34.8731,0.04792
34.96447,0.04856
35.21827,0.04937
35.38071,0.04808
35.44162,0.04599
35.64467,0.04631
35.79695,0.04905
35.86802,0.04615
36.07107,0.04599
36.22335,0.0484
36.30457,0.04969
36.55838,0.05114
36.74112,0.04711
36.84264,0.04373
37.16751,0.04905
37.38071,0.04937
37.49239,0.0521
37.7868,0.05114
37.9797,0.05307
38.06091,0.04727
38.27411,0.05114
38.38579,0.04921
38.4264,0.04663
38.57868,0.05001
38.70051,0.05243
38.75127,0.04808
38.90355,0.04776
39.03553,0.05291
39.1066,0.04824
39.36041,0.05468
39.54315,0.0513
39.66497,0.04422
39.92893,0.05033
40.09137,0.04663
40.17259,0.04872
40.43655,0.05323
40.62944,0.04937
40.71066,0.05339
40.98477,0.04937
41.20812,0.05082
41.26904,0.04679
41.5533,0.04808
41.74619,0.04695
41.82741,0.05371
42.09137,0.04937
42.29442,0.05049
42.39594,0.04727
42.74112,0.04856
42.99492,0.04744
43.08629,0.04953
43.47208,0.04744
43.75635,0.04937
43.85787,0.04454
44.26396,0.05114
44.53807,0.04695
44.64975,0.05226
44.97462,0.05323
45.17766,0.05243
45.24873,0.0513
45.50254,0.04792
45.68528,0.0476
45.75635,0.05243
46.01015,0.04824
46.19289,0.0521
46.27411,0.05033
46.51777,0.05259
46.70051,0.04695
46.77157,0.05339
46.97462,0.05355
47.11675,0.05033
47.16751,0.05114
47.37056,0.04905
47.49239,0.05226
47.5533,0.05307
47.75635,0.05613
47.90863,0.05017
47.96954,0.05403
48.16244,0.0476
48.30457,0.05307
48.34518,0.05243
48.55838,0.05645
48.70051,0.05049
48.77157,0.05339
48.96447,0.05033
49.11675,0.05098
49.16751,0.04985
49.3401,0.05001
49.45178,0.05436
49.49239,0.05162
49.62437,0.05629
49.72589,0.04905
49.77665,0.05178
49.89848,0.05387
49.98985,0.05371
50.04061,0.05114
50.22335,0.05387
50.35533,0.04888
50.41624,0.05403
50.61929,0.05162
50.76142,0.05243
50.82234,0.05452
51.01523,0.05146
51.13706,0.0521
51.19797,0.05516
51.36041,0.05082
51.45178,0.0513
51.48223,0.04776
51.58376,0.05162
51.64467,0.05243
51.67513,0.05355
51.77665,0.05355
51.83756,0.05291
51.85787,0.05355
51.93909,0.05548
51.98985,0.05114
52.03046,0.05371
52.16244,0.05645
52.25381,0.05725
52.29442,0.05291
52.46701,0.05323
52.6599,0.05275
52.74112,0.04985
52.99492,0.05339
53.16751,0.04937
53.23858,0.05629
53.47208,0.05307
53.62437,0.05436
53.68528,0.05355
53.87817,0.05291
54.0,0.05387
54.06091,0.05371
54.2132,0.05146
54.33503,0.05484
54.37563,0.05049
54.53807,0.05259
54.67005,0.05291
54.75127,0.05259
55.15736,0.04985
55.47208,0.055
55.62437,0.05275
55.98985,0.04872
56.22335,0.04905
56.32487,0.04969
56.63959,0.05178
56.80203,0.04888
56.86294,0.05033
57.03553,0.04663
57.14721,0.05049
57.17766,0.0513
57.29949,0.05307
57.39086,0.05033
57.44162,0.04872
57.71574,0.05033
57.93909,0.04647
58.0203,0.05065
58.30457,0.04921
58.47716,0.05001
58.55838,0.0521
58.78173,0.04905
58.94416,0.05065
59.00508,0.04566
59.21827,0.05146
59.3401,0.05243
59.39086,0.04953
59.5533,0.04534
59.66497,0.04953
59.70558,0.05082
59.82741,0.05194
59.91878,0.04856
59.95939,0.05291
60.12183,0.05243
60.25381,0.05033
60.31472,0.04856
60.52792,0.05098
60.69036,0.04776
60.76142,0.05178
61.00508,0.05275
61.17766,0.04518
61.25888,0.04969
61.56345,0.04727
61.77665,0.0484
61.86802,0.04454
62.12183,0.04534
62.27411,0.04872
62.34518,0.04888
62.59898,0.04518
62.81218,0.05033
62.91371,0.04422
63.27919,0.04744
63.51269,0.05339
63.59391,0.0484
63.88832,0.04953
64.10152,0.04679
64.2335,0.04727
64.61929,0.0521
64.8731,0.05017
64.99492,0.04856
65.29949,0.05049
65.52284,0.04727
65.62437,0.05033
65.89848,0.05162
66.03046,0.05275
66.08122,0.04406
66.25381,0.05017
66.38579,0.05065
66.4467,0.04872
66.70051,0.04647
66.8934,0.04373
66.98477,0.04872
67.20812,0.05178
67.36041,0.04663
67.43147,0.04679
67.64467,0.04921
67.7665,0.05114
67.81726,0.04921
67.98985,0.04872
68.09137,0.05001
68.14213,0.04792
68.31472,0.04872
68.4264,0.04727
68.48731,0.04969
68.70051,0.04711
68.84264,0.04293
68.92386,0.04921
69.1269,0.04888
69.26904,0.05001
69.3401,0.04872
69.56345,0.04856
69.70558,0.04856
69.77665,0.05162
70.05076,0.05001
70.22335,0.04872
70.30457,0.05226
70.51777,0.05049
70.63959,0.04953
70.72081,0.04599
70.90355,0.04824
71.04569,0.05194
71.11675,0.0484
71.39086,0.05017
71.61421,0.04727
71.72589,0.05001
71.98985,0.04888
72.17259,0.04953
72.26396,0.05017
72.53807,0.0447
72.70051,0.05259
72.78173,0.04341
72.99492,0.04776
73.13706,0.04921
73.19797,0.0513
73.40102,0.04663
73.54315,0.05033
73.60406,0.04824
73.75635,0.0484
73.85787,0.04792
73.90863,0.04921
74.03046,0.0513
74.11168,0.04727
74.15228,0.05033
74.26396,0.04695
74.33503,0.05259
74.36548,0.04824
74.45685,0.05468
74.51777,0.05001
74.55838,0.05291
74.69036,0.04615
74.79188,0.05259
74.83249,0.05194
74.98477,0.05243
75.09645,0.04856
75.15736,0.0513
75.36041,0.04937
75.51269,0.05339
75.59391,0.05307
75.82741,0.04792
75.94924,0.05098
76.01015,0.05371
76.14213,0.05114
76.2335,0.05162
76.28426,0.04905
76.40609,0.05548
76.49746,0.055
76.54822,0.04921
76.71066,0.05339
76.83249,0.05033
76.8934,0.05275
77.05584,0.05661
77.13706,0.06305
77.18782,0.06273
77.30964,0.07496
77.40102,0.08735
77.47208,0.09685
77.70558,0.12196
77.85787,0.14337
77.95939,0.15447
78.19289,0.16156
78.33503,0.15753
78.39594,0.15335
78.54822,0.15463
78.67005,0.15238
78.73096,0.15141
78.96447,0.15238
79.1269,0.15174
79.20812,0.15029
79.38071,0.14514
79.45178,0.14304
79.48223,0.13757
79.54315,0.12759
79.59391,0.12936
79.62437,0.12148
79.73604,0.11439
79.84772,0.10779
79.89848,0.09926
80.09137,0.08027
80.19289,0.07351
80.24365,0.07013
80.38579,0.06418
80.50761,0.06659
80.54822,0.06112
80.6802,0.06208
80.78173,0.06015
80.83249,0.0579
80.99492,0.05822
81.11675,0.05967
81.17766,0.05564
81.3401,0.05822
81.45178,0.05677
81.49239,0.05259
81.64467,0.05677
81.74619,0.05854
81.79695,0.05387
81.87817,0.05436
81.93909,0.05919
81.95939,0.05146
82.04061,0.05693
82.09137,0.05935
82.12183,0.05613
82.22335,0.05854
82.30457,0.05581
82.35533,0.05371
82.45685,0.05983
82.53807,0.05725
82.56853,0.0579
82.69036,0.05822
82.80203,0.05355
82.86294,0.05725
83.05584,0.05564
83.17766,0.05629
83.24873,0.05741
83.40102,0.0579
83.49239,0.05597
83.53299,0.05629
83.67513,0.0587
83.77665,0.05436
83.82741,0.05259
84.04061,0.05082
84.2132,0.05709
84.31472,0.0587
84.57868,0.05371
84.75127,0.0542
84.83249,0.05709
85.04569,0.05983
85.14721,0.05983
85.18782,0.0579
85.30964,0.05661
85.38071,0.05098
85.41117,0.05774
85.52284,0.05886
85.60406,0.05806
85.64467,0.05886
85.77665,0.05935
85.89848,0.05902
85.96954,0.05693
86.25381,0.05323
86.49746,0.05919
86.58883,0.05935
86.91371,0.06321
87.09645,0.0608
87.17766,0.06144
87.38071,0.06096
87.49239,0.05967
87.54315,0.05806
87.66497,0.05935
87.72589,0.05951
87.74619,0.06208
87.7868,0.05886
87.81726,0.05919
87.83756,0.05661
87.88832,0.0579
87.95939,0.06096
87.98985,0.0624
88.11168,0.05822
88.20305,0.06112
88.25381,0.05983
88.36548,0.06208
88.4467,0.0579
88.49746,0.06031
88.62944,0.0579
88.6802,0.06192
88.70051,0.0579
88.75127,0.05902
88.79188,0.06289
88.82234,0.06337
88.88325,0.05886
88.92386,0.06144
88.95431,0.06434
89.06599,0.05999
89.14721,0.06128
89.18782,0.05806
89.36041,0.05822
89.46193,0.06015
89.50254,0.06128
89.65482,0.06289
89.77665,0.05725
89.83756,0.06112
90.0,0.0616
